{
    "resourceType": "Bundle",
    "id": "urn:uuid:f1005d98-433d-47ba-8fa7-ee2a19fdff50",
    "meta": {
        "profile": [
            "http://hl7.org/fhir/us/mdi/StructureDefinition/Bundle-document-mdi-and-edrs"
        ]
    },
    "identifier": {
        "system": "urn:ietf:rfc:3986",
        "value": "urn:uuid:933dde44f7664b03a20b6324f23986c0"
    },
    "type": "document",
    "timestamp": "2024-05-02T20:08:37.6418717+00:00",
    "entry": [
        {
            "fullUrl": "urn:uuid:017967d2-3590-4b6c-91c6-9347df2485f7",
            "resource": {
                "resourceType": "Composition",
                "id": "urn:uuid:017967d2-3590-4b6c-91c6-9347df2485f7",
                "meta": {
                    "profile": [
                        "http://hl7.org/fhir/us/vrdr/StructureDefinition/VRDR-Death-Certificate"
                    ]
                },
                "identifier": {
                    "value": "24-00127"
                },
                "status": "final",
                "type": {
                    "coding": [
                        {
                            "system": "http://loinc.org",
                            "code": "64297-5",
                            "display": "Death certificate"
                        }
                    ]
                },
                "subject": {
                    "reference": "urn:uuid:a331ecfb-944a-44ec-8ce9-75378fb7019d"
                },
                "date": "2024-05-02",
                "author": [
                    {
                        "reference": "urn:uuid:0e4ffea4-dfd1-4a79-b2fc-4f9f5ce2fb44"
                    }
                ],
                "title": "MDI to EDRS Composition",
                "attester": [
                    {
                        "mode": "professional",
                        "party": {
                            "reference": "urn:uuid:0e4ffea4-dfd1-4a79-b2fc-4f9f5ce2fb44"
                        }
                    }
                ],
                "section": [
                    {
                        "title": "Circumstances Section",
                        "code": {
                            "coding": [
                                {
                                    "system": "http://hl7.org/fhir/us/mdi/CodeSystem/CodeSystem-vr-codes",
                                    "code": "circumstances"
                                }
                            ]
                        },
                        "entry": [
                            {
                                "reference": "urn:uuid:5eff8b48-e98e-48b7-8875-49038f05522f"
                            },
                            {
                                "reference": "urn:uuid:d25eb2fb-e968-427d-a115-1427554cad84"
                            },
                            {
                                "reference": "urn:uuid:5d9ef80c-4d3f-4590-ab06-739c5fe5c9e4"
                            },
                            {
                                "reference": "urn:uuid:e6e7140e-0b2b-41c5-a42b-6bab7bf52c3a"
                            },
                            {
                                "reference": "urn:uuid:4e6c2a00-8c68-4d45-a217-27216348f049"
                            },
                            {
                                "reference": "urn:uuid:b2f6d455-6098-4b54-9d03-713ec4389ce3"
                            },
                            {
                                "reference": "urn:uuid:0f4a95c1-b179-4356-88c3-5719efa66f86"
                            },
                            {
                                "reference": "urn:uuid:fb9d18f7-7a2e-424a-a9c5-73f0b2d9e21e"
                            },
                            {
                                "reference": "urn:uuid:267567de-5f45-4585-a421-989b99711a8f"
                            },
                            {
                                "reference": "urn:uuid:c2985cc5-aac3-42d3-a52b-12425998491d"
                            },
                            {
                                "reference": "urn:uuid:af35db76-37eb-45cb-be3d-c24fb69a6877"
                            },
                            {
                                "reference": "urn:uuid:f1c0ed70-a080-4000-8a70-f1321bd63734"
                            },
                            {
                                "reference": "urn:uuid:95aa2126-a75b-4de4-af00-bb01fffcafa2"
                            },
                            {
                                "reference": "urn:uuid:e03be884-5e41-48f0-9bab-eccf5f65d9e5"
                            },
                            {
                                "reference": "urn:uuid:60002b9e-7a9f-4447-823f-4ecb3cb0d14a"
                            },
                            {
                                "reference": "urn:uuid:3bcdc3ab-d390-486d-8c23-95456849ca4c"
                            }
                        ]
                    },
                    {
                        "title": "Jurisdiction Section",
                        "code": {
                            "coding": [
                                {
                                    "system": "http://hl7.org/fhir/us/mdi/CodeSystem/CodeSystem-vr-codes",
                                    "code": "jurisdiction"
                                }
                            ]
                        },
                        "entry": [
                            {
                                "reference": "urn:uuid:ebe05fd4-aff4-408c-b426-86158d845d0e"
                            },
                            {
                                "reference": "urn:uuid:d5afad9b-cb0c-46f7-a118-7d802c4a8113"
                            }
                        ]
                    },
                    {
                        "title": "Cause and Manner of Death Section",
                        "code": {
                            "coding": [
                                {
                                    "system": "http://hl7.org/fhir/us/mdi/CodeSystem/CodeSystem-vr-codes",
                                    "code": "cause-manner"
                                }
                            ]
                        },
                        "entry": [
                            {
                                "reference": "urn:uuid:62e747eb-02e2-4c44-a700-ab8fe929a6d9"
                            },
                            {
                                "reference": "urn:uuid:af3a39c8-5abd-4bea-840f-a64bcdcf9918"
                            }
                        ]
                    }
                ]
            }
        },
        {
            "fullUrl": "urn:uuid:a331ecfb-944a-44ec-8ce9-75378fb7019d",
            "resource": {
                "resourceType": "Patient",
                "id": "urn:uuid:a331ecfb-944a-44ec-8ce9-75378fb7019d",
                "meta": {
                    "profile": [
                        "http://hl7.org/fhir/us/vrdr/StructureDefinition/VRDR-Decedent"
                    ]
                },
                "extension": [
                    {
                        "extension": [
                            {
                                "url": "ombCategory",
                                "valueCoding": {
                                    "system": "urn:oid:2.16.840.1.113883.6.238",
                                    "code": "2135-2",
                                    "display": "Hispanic or Latino"
                                }
                            },
                            {
                                "url": "text",
                                "valueString": "Hispanic or Latino"
                            }
                        ],
                        "url": "http://hl7.org/fhir/us/core/StructureDefinition/us-core-ethnicity"
                    },
                    {
                        "extension": [
                            {
                                "url": "ombCategory",
                                "valueCoding": {
                                    "system": "http://terminology.hl7.org/CodeSystem/v3-NullFlavor",
                                    "code": "UNK",
                                    "display": "Unknown"
                                }
                            },
                            {
                                "url": "text",
                                "valueString": "Unknown"
                            }
                        ],
                        "url": "http://hl7.org/fhir/us/core/StructureDefinition/us-core-race"
                    },
                    {
                        "url": "http://hl7.org/fhir/us/core/StructureDefinition/us-core-genderIdentity",
                        "valueCodeableConcept": {
                            "coding": [
                                {
                                    "system": "http://hl7.org/fhir/gender-identity",
                                    "code": "transgender-male"
                                }
                            ],
                            "text": "transgender male"
                        }
                    }
                ],
                "identifier": [
                    {
                        "type": {
                            "coding": [
                                {
                                    "code": "BR",
                                    "display": "Social Beneficiary Identifier"
                                }
                            ]
                        },
                        "system": "http://hl7.org/fhir/sid/us-ssn",
                        "value": "555222333"
                    }
                ],
                "name": [
                    {
                        "use": "official",
                        "family": "LastNameTest",
                        "given": [
                            "FisrtNameTest",
                            "MiddleNameTest"
                        ],
                        "suffix": [
                            "Second"
                        ]
                    }
                ],
                "gender": "female",
                "birthDate": "2000-05-01",
                "address": [
                    {
                        "line": [
                            "1841 East Craig Road"
                        ],
                        "city": "North Las Vegas",
                        "district": "Clark",
                        "state": "Nevada",
                        "postalCode": "89030",
                        "country": "United States"
                    }
                ]
            }
        },
        {
            "fullUrl": "urn:uuid:0e4ffea4-dfd1-4a79-b2fc-4f9f5ce2fb44",
            "resource": {
                "resourceType": "Practitioner",
                "id": "urn:uuid:0e4ffea4-dfd1-4a79-b2fc-4f9f5ce2fb44",
                "meta": {
                    "profile": [
                        "http://hl7.org/fhir/us/vrdr/StructureDefinition/VRDR-Certifier"
                    ]
                }
            }
        },
        {
            "fullUrl": "urn:uuid:ebe05fd4-aff4-408c-b426-86158d845d0e",
            "resource": {
                "resourceType": "Procedure",
                "id": "urn:uuid:ebe05fd4-aff4-408c-b426-86158d845d0e",
                "meta": {
                    "profile": [
                        "http://hl7.org/fhir/us/vrdr/StructureDefinition/VRDR-Death-Certification"
                    ]
                },
                "status": "completed",
                "category": {
                    "coding": [
                        {
                            "system": "http://snomed.info/sct",
                            "code": "103693007",
                            "display": "Diagnostic procedure"
                        }
                    ]
                },
                "code": {
                    "coding": [
                        {
                            "system": "http://snomed.info/sct",
                            "code": "308646001",
                            "display": "Death certification"
                        }
                    ]
                },
                "subject": {
                    "reference": "urn:uuid:a331ecfb-944a-44ec-8ce9-75378fb7019d"
                },
                "performer": [
                    {
                        "actor": {
                            "reference": "urn:uuid:0e4ffea4-dfd1-4a79-b2fc-4f9f5ce2fb44"
                        }
                    }
                ]
            }
        },
        {
            "fullUrl": "urn:uuid:62e747eb-02e2-4c44-a700-ab8fe929a6d9",
            "resource": {
                "resourceType": "List",
                "id": "urn:uuid:62e747eb-02e2-4c44-a700-ab8fe929a6d9",
                "meta": {
                    "profile": [
                        "http://hl7.org/fhir/us/vrdr/StructureDefinition/VRDR-Cause-of-Death-Pathway"
                    ]
                },
                "status": "current",
                "mode": "snapshot",
                "source": {
                    "reference": "urn:uuid:0e4ffea4-dfd1-4a79-b2fc-4f9f5ce2fb44"
                },
                "orderedBy": {
                    "coding": [
                        {
                            "code": "priority"
                        }
                    ]
                },
                "entry": [
                    {
                        "item": {
                            "reference": "urn:uuid:01086527-e172-493a-96f0-076cd8f07af1"
                        }
                    },
                    {
                        "item": {
                            "reference": "urn:uuid:9a11e50c-98fb-447c-a72b-cc12b9c15765"
                        }
                    },
                    {
                        "item": {
                            "reference": "urn:uuid:74f12b83-3b7c-49e2-a55d-2ebd86476232"
                        }
                    },
                    {
                        "item": {
                            "reference": "urn:uuid:dae42cbd-d782-4cbd-abcf-04a900823e9e"
                        }
                    }
                ]
            }
        },
        {
            "fullUrl": "urn:uuid:d5afad9b-cb0c-46f7-a118-7d802c4a8113",
            "resource": {
                "resourceType": "Observation",
                "id": "urn:uuid:d5afad9b-cb0c-46f7-a118-7d802c4a8113",
                "meta": {
                    "profile": [
                        "http://hl7.org/fhir/us/vrdr/StructureDefinition/VRDR-Death-Date"
                    ]
                },
                "status": "final",
                "code": {
                    "coding": [
                        {
                            "system": "urn:oid:2.16.840.1.113883.6.1",
                            "code": "81956-5",
                            "display": "Date and time of death"
                        }
                    ]
                },
                "subject": {
                    "reference": "urn:uuid:a331ecfb-944a-44ec-8ce9-75378fb7019d"
                },
                "effectiveDateTime": "2024-05-01T15:32:00+00:00",
                "performer": [
                    {
                        "reference": "urn:uuid:82889d84-7724-47fe-b146-e62a5a82a333"
                    }
                ],
                "method": {
                    "coding": [
                        {
                            "system": "urn:oid:2.16.840.1.113883.6.96",
                            "code": "414135002",
                            "display": "Actual"
                        }
                    ]
                }
            }
        },
        {
            "fullUrl": "urn:uuid:5eff8b48-e98e-48b7-8875-49038f05522f",
            "resource": {
                "resourceType": "Location",
                "id": "urn:uuid:5eff8b48-e98e-48b7-8875-49038f05522f",
                "meta": {
                    "profile": [
                        "http://hl7.org/fhir/us/vrdr/StructureDefinition/VRDR-death-location"
                    ]
                },
                "name": "Banfield Pet Hospital",
                "description": "Banfield Pet Hospital",
                "address": {
                    "line": [
                        "171 North Nellis Boulevard"
                    ],
                    "city": "Las Vegas",
                    "district": "Clark",
                    "state": "Nevada",
                    "postalCode": "89110",
                    "country": "United States"
                },
                "physicalType": {
                    "coding": [
                        {
                            "system": "http://terminology.hl7.org/CodeSystem/v3-NullFlavor",
                            "code": "OTH",
                            "display": "Other"
                        }
                    ],
                    "text": "Other (Specify)"
                }
            }
        },
        {
            "fullUrl": "urn:uuid:af3a39c8-5abd-4bea-840f-a64bcdcf9918",
            "resource": {
                "resourceType": "Observation",
                "id": "urn:uuid:af3a39c8-5abd-4bea-840f-a64bcdcf9918",
                "meta": {
                    "profile": [
                        "http://hl7.org/fhir/us/vrdr/StructureDefinition/VRDR-Manner-of-Death"
                    ]
                },
                "extension": [
                    {
                        "url": "http://example.org/clark-example-ig/Custom-Codesystem-Example/suicide-note",
                        "valueCodeableConcept": {
                            "coding": [
                                {
                                    "system": "http://terminology.hl7.org/CodeSystem/v2-0136",
                                    "code": "Y"
                                }
                            ],
                            "text": "Yes"
                        }
                    },
                    {
                        "url": "http://example.org/clark-example-ig/Custom-Codesystem-Example/death-in-custody",
                        "valueCodeableConcept": {
                            "coding": [
                                {
                                    "system": "http://terminology.hl7.org/CodeSystem/v2-0136",
                                    "code": "Y"
                                }
                            ],
                            "text": "Yes"
                        }
                    }
                ],
                "status": "final",
                "code": {
                    "coding": [
                        {
                            "system": "http://loinc.org",
                            "code": "69449-7",
                            "display": "Manner of death"
                        }
                    ]
                },
                "subject": {
                    "reference": "urn:uuid:a331ecfb-944a-44ec-8ce9-75378fb7019d"
                },
                "performer": [
                    {
                        "reference": "urn:uuid:0e4ffea4-dfd1-4a79-b2fc-4f9f5ce2fb44"
                    }
                ],
                "valueCodeableConcept": {
                    "coding": [
                        {
                            "system": "http://snomed.info/sct",
                            "code": "7878000"
                        }
                    ],
                    "text": "Accident"
                }
            }
        },
        {
            "fullUrl": "urn:uuid:d25eb2fb-e968-427d-a115-1427554cad84",
            "resource": {
                "resourceType": "Observation",
                "id": "urn:uuid:d25eb2fb-e968-427d-a115-1427554cad84",
                "meta": {
                    "profile": [
                        "http://example.org/clark-example-ig/NVDRS-Firearm"
                    ]
                },
                "extension": [
                    {
                        "url": "http://example.org/clark-example-ig/Custom-Codesystem-Example/Stolen",
                        "valueCodeableConcept": {
                            "coding": [
                                {
                                    "system": "http://terminology.hl7.org/CodeSystem/v2-0136",
                                    "code": "Y"
                                }
                            ],
                            "text": "Yes"
                        }
                    },
                    {
                        "url": "http://example.org/clark-example-ig/Custom-Codesystem-Example/Stored-Loaded",
                        "valueCodeableConcept": {
                            "coding": [
                                {
                                    "system": "http://terminology.hl7.org/CodeSystem/v2-0136",
                                    "code": "Y"
                                }
                            ],
                            "text": "Yes"
                        }
                    },
                    {
                        "url": "http://example.org/clark-example-ig/Custom-Codesystem-Example/Stored-Loaded",
                        "valueIdentifier": {
                            "value": "8888"
                        }
                    },
                    {
                        "url": "http://example.org/clark-example-ig/Custom-Codesystem-Example/NVDRS-Firearm-Owner-Extension",
                        "valueReference": {
                            "reference": "urn:uuid:0f4a95c1-b179-4356-88c3-5719efa66f86"
                        }
                    }
                ],
                "status": "final",
                "category": [
                    {
                        "coding": [
                            {
                                "system": "http://example.org/clark-example-ig/Custom-Codesystem-Example",
                                "code": "circumstances",
                                "display": "Circumstances"
                            }
                        ],
                        "text": "Circumstances"
                    }
                ],
                "code": {
                    "coding": [
                        {
                            "system": "http://example.org/clark-example-ig/Custom-Codesystem-Example",
                            "code": "firearm",
                            "display": "Details on Firearm"
                        }
                    ],
                    "text": "Details on Firearm"
                },
                "component": [
                    {
                        "code": {
                            "coding": [
                                {
                                    "system": "http://example.org/clark-example-ig/Custom-Codesystem-Example",
                                    "code": "firearm-caliber",
                                    "display": "Firearm - Caliber"
                                }
                            ],
                            "text": "Firearm - Caliber"
                        },
                        "valueString": "TestMake"
                    },
                    {
                        "code": {
                            "coding": [
                                {
                                    "system": "http://example.org/clark-example-ig/Custom-Codesystem-Example",
                                    "code": "firearm-model",
                                    "display": "Firearm - Model"
                                }
                            ],
                            "text": "Firearm - Model"
                        },
                        "valueString": "TestModel"
                    },
                    {
                        "code": {
                            "coding": [
                                {
                                    "system": "http://example.org/clark-example-ig/Custom-Codesystem-Example",
                                    "code": "firearm-type",
                                    "display": "Firearm - Type"
                                }
                            ],
                            "text": "Firearm - Type"
                        },
                        "valueString": "Shotgun"
                    }
                ]
            }
        },
        {
            "fullUrl": "urn:uuid:5d9ef80c-4d3f-4590-ab06-739c5fe5c9e4",
            "resource": {
                "resourceType": "Observation",
                "id": "urn:uuid:5d9ef80c-4d3f-4590-ab06-739c5fe5c9e4",
                "meta": {
                    "profile": [
                        "http://hl7.org/fhir/us/mdi/StructureDefinition/Observation-toxicology-lab-result"
                    ]
                },
                "status": "final",
                "category": [
                    {
                        "coding": [
                            {
                                "system": "http://terminology.hl7.org/CodeSystem/observation-category",
                                "code": "laboratory",
                                "display": "Laboratory"
                            }
                        ],
                        "text": "Laboratory"
                    }
                ],
                "code": {
                    "coding": [
                        {
                            "system": "http://example.org/clark-example-ig/Custom-Codesystem-Example",
                            "code": "laboratory",
                            "display": "Laboratory"
                        }
                    ],
                    "text": "Laboratory"
                },
                "subject": {
                    "reference": "urn:uuid:a331ecfb-944a-44ec-8ce9-75378fb7019d"
                },
                "component": [
                    {
                        "code": {
                            "coding": [
                                {
                                    "system": "http://example.org/clark-example-ig/Custom-Codesystem-Example",
                                    "code": "alcochol",
                                    "display": "Alcohol"
                                }
                            ],
                            "text": "Alcohol"
                        },
                        "valueString": "0.9"
                    },
                    {
                        "code": {
                            "coding": [
                                {
                                    "system": "http://example.org/clark-example-ig/Custom-Codesystem-Example",
                                    "code": "amphetamine",
                                    "display": "Amphetamine"
                                }
                            ],
                            "text": "Amphetamine"
                        },
                        "valueString": "4 mg"
                    },
                    {
                        "code": {
                            "coding": [
                                {
                                    "system": "http://example.org/clark-example-ig/Custom-Codesystem-Example",
                                    "code": "benzodiazepines",
                                    "display": "Benzodiazepines"
                                }
                            ],
                            "text": "Benzodiazepines"
                        },
                        "valueString": "8 mg"
                    },
                    {
                        "code": {
                            "coding": [
                                {
                                    "system": "http://example.org/clark-example-ig/Custom-Codesystem-Example",
                                    "code": "cocaine",
                                    "display": "Cocaine"
                                }
                            ],
                            "text": "Cocaine"
                        },
                        "valueString": "7 mg"
                    },
                    {
                        "code": {
                            "coding": [
                                {
                                    "system": "http://example.org/clark-example-ig/Custom-Codesystem-Example",
                                    "code": "opiate",
                                    "display": "Opiate"
                                }
                            ],
                            "text": "Opiate"
                        },
                        "valueString": "5 mg"
                    },
                    {
                        "code": {
                            "coding": [
                                {
                                    "system": "http://example.org/clark-example-ig/Custom-Codesystem-Example",
                                    "code": "drug-involvement",
                                    "display": "Drug Involvement"
                                }
                            ],
                            "text": "Drug Involvement"
                        },
                        "valueCodeableConcept": {
                            "coding": [
                                {
                                    "system": "http://terminology.hl7.org/CodeSystem/v2-0136",
                                    "code": "Y"
                                }
                            ],
                            "text": "Yes"
                        }
                    }
                ]
            }
        },
        {
            "fullUrl": "urn:uuid:e6e7140e-0b2b-41c5-a42b-6bab7bf52c3a",
            "resource": {
                "resourceType": "Observation",
                "id": "urn:uuid:e6e7140e-0b2b-41c5-a42b-6bab7bf52c3a",
                "meta": {
                    "profile": [
                        "http://hl7.org/fhir/us/vrdr/StructureDefinition/VRDR-Decedent-Age"
                    ]
                },
                "status": "final",
                "code": {
                    "coding": [
                        {
                            "system": "http://loinc.org",
                            "code": "30525-0",
                            "display": "Age"
                        }
                    ]
                },
                "subject": {
                    "reference": "urn:uuid:a331ecfb-944a-44ec-8ce9-75378fb7019d"
                },
                "valueQuantity": {
                    "value": 24,
                    "unit": "a"
                }
            }
        },
        {
            "fullUrl": "urn:uuid:01086527-e172-493a-96f0-076cd8f07af1",
            "resource": {
                "resourceType": "Condition",
                "id": "urn:uuid:01086527-e172-493a-96f0-076cd8f07af1",
                "meta": {
                    "profile": [
                        "http://hl7.org/fhir/us/vrdr/StructureDefinition/VRDR-Cause-Of-Death-Condition"
                    ]
                },
                "code": {
                    "text": "Airway Occlusion - Chemical"
                },
                "subject": {
                    "reference": "urn:uuid:a331ecfb-944a-44ec-8ce9-75378fb7019d"
                },
                "onsetString": "Seconds",
                "asserter": {
                    "reference": "urn:uuid:0e4ffea4-dfd1-4a79-b2fc-4f9f5ce2fb44"
                }
            }
        },
        {
            "fullUrl": "urn:uuid:9a11e50c-98fb-447c-a72b-cc12b9c15765",
            "resource": {
                "resourceType": "Condition",
                "id": "urn:uuid:9a11e50c-98fb-447c-a72b-cc12b9c15765",
                "meta": {
                    "profile": [
                        "http://hl7.org/fhir/us/vrdr/StructureDefinition/VRDR-Cause-Of-Death-Condition"
                    ]
                },
                "code": {
                    "text": "Cancer - Non Hodgkins Lynphoma"
                },
                "subject": {
                    "reference": "urn:uuid:a331ecfb-944a-44ec-8ce9-75378fb7019d"
                },
                "onsetString": "Minutes",
                "asserter": {
                    "reference": "urn:uuid:0e4ffea4-dfd1-4a79-b2fc-4f9f5ce2fb44"
                }
            }
        },
        {
            "fullUrl": "urn:uuid:74f12b83-3b7c-49e2-a55d-2ebd86476232",
            "resource": {
                "resourceType": "Condition",
                "id": "urn:uuid:74f12b83-3b7c-49e2-a55d-2ebd86476232",
                "meta": {
                    "profile": [
                        "http://hl7.org/fhir/us/vrdr/StructureDefinition/VRDR-Cause-Of-Death-Condition"
                    ]
                },
                "code": {
                    "text": "Cancer - Uterus"
                },
                "subject": {
                    "reference": "urn:uuid:a331ecfb-944a-44ec-8ce9-75378fb7019d"
                },
                "onsetString": "Hours",
                "asserter": {
                    "reference": "urn:uuid:0e4ffea4-dfd1-4a79-b2fc-4f9f5ce2fb44"
                }
            }
        },
        {
            "fullUrl": "urn:uuid:dae42cbd-d782-4cbd-abcf-04a900823e9e",
            "resource": {
                "resourceType": "Condition",
                "id": "urn:uuid:dae42cbd-d782-4cbd-abcf-04a900823e9e",
                "meta": {
                    "profile": [
                        "http://hl7.org/fhir/us/vrdr/StructureDefinition/VRDR-Cause-Of-Death-Condition"
                    ]
                },
                "code": {
                    "text": "Cardiac - Ruptured Aortic Aneurysm"
                },
                "subject": {
                    "reference": "urn:uuid:a331ecfb-944a-44ec-8ce9-75378fb7019d"
                },
                "onsetString": "Months",
                "asserter": {
                    "reference": "urn:uuid:0e4ffea4-dfd1-4a79-b2fc-4f9f5ce2fb44"
                }
            }
        },
        {
            "fullUrl": "urn:uuid:d1b304f6-49f7-4880-88c7-199fcd75defb",
            "resource": {
                "resourceType": "Condition",
                "id": "urn:uuid:d1b304f6-49f7-4880-88c7-199fcd75defb",
                "meta": {
                    "profile": [
                        "http://hl7.org/fhir/us/vrdr/StructureDefinition/VRDR-Condition-Contributintg-To-Death"
                    ]
                },
                "code": {
                    "text": "other cause"
                },
                "subject": {
                    "reference": "urn:uuid:a331ecfb-944a-44ec-8ce9-75378fb7019d"
                }
            }
        },
        {
            "fullUrl": "urn:uuid:53be33eb-7138-4c0e-8d48-d849cd941ee6",
            "resource": {
                "resourceType": "Observation",
                "id": "urn:uuid:53be33eb-7138-4c0e-8d48-d849cd941ee6",
                "meta": {
                    "profile": [
                        "http://hl7.org/fhir/us/vrdr/StructureDefinition/VRDR-Autopsy-Performed-Indicator"
                    ]
                },
                "status": "final",
                "code": {
                    "coding": [
                        {
                            "system": "http://loinc.org",
                            "code": "85699-7",
                            "display": "Autopsy was performed"
                        }
                    ]
                },
                "subject": {
                    "reference": "urn:uuid:a331ecfb-944a-44ec-8ce9-75378fb7019d"
                },
                "valueCodeableConcept": {
                    "coding": [
                        {
                            "system": "http://terminology.hl7.org/CodeSystem/v2-0136",
                            "code": "Y"
                        }
                    ],
                    "text": "Yes"
                }
            }
        },
        {
            "fullUrl": "urn:uuid:4e6c2a00-8c68-4d45-a217-27216348f049",
            "resource": {
                "resourceType": "Observation",
                "id": "urn:uuid:4e6c2a00-8c68-4d45-a217-27216348f049",
                "meta": {
                    "profile": [
                        "http://hl7.org/fhir/us/vrdr/StructureDefinition/VRDR-Injury-Incident"
                    ]
                },
                "status": "final",
                "code": {
                    "coding": [
                        {
                            "system": "urn:oid:2.16.840.1.113883.3.290.2.1.19",
                            "code": "11374-6",
                            "display": "Injury incident description"
                        }
                    ]
                },
                "subject": {
                    "reference": "urn:uuid:a331ecfb-944a-44ec-8ce9-75378fb7019d"
                },
                "effectiveDateTime": "2024-05-01T10:36:00+00:00",
                "component": [
                    {
                        "code": {
                            "coding": [
                                {
                                    "system": "urn:oid:2.16.840.1.113883.6.1",
                                    "code": "69444-8",
                                    "display": "Did death result from injury at work"
                                }
                            ]
                        },
                        "valueCodeableConcept": {
                            "coding": [
                                {
                                    "system": "http://terminology.hl7.org/CodeSystem/v2-0136",
                                    "code": "Y"
                                }
                            ],
                            "text": "Yes"
                        }
                    },
                    {
                        "code": {
                            "coding": [
                                {
                                    "system": "urn:oid:2.16.840.1.113883.6.1",
                                    "code": "69444-8",
                                    "display": "Did death result from injury at work"
                                }
                            ]
                        },
                        "valueCodeableConcept": {
                            "coding": [
                                {
                                    "system": "http://terminology.hl7.org/CodeSystem/v2-0136",
                                    "code": "N"
                                }
                            ],
                            "text": "No"
                        }
                    },
                    {
                        "code": {
                            "coding": [
                                {
                                    "system": "http://loinc.org",
                                    "code": "69450-5",
                                    "display": "Place of injury Facility"
                                }
                            ]
                        },
                        "valueCodeableConcept": {
                            "coding": [
                                {
                                    "system": "urn:oid:2.16.840.1.114222.4.5.320",
                                    "code": "8",
                                    "display": "Other Specified Place"
                                }
                            ],
                            "text": "shopping center"
                        }
                    },
                    {
                        "code": {
                            "coding": [
                                {
                                    "system": "http://loinc.org",
                                    "code": "69451-3"
                                }
                            ]
                        },
                        "valueCodeableConcept": {
                            "coding": [
                                {
                                    "system": "http://snomed.info/sct",
                                    "code": "236320001"
                                }
                            ],
                            "text": "Vehicle driver"
                        }
                    }
                ]
            }
        },
        {
            "fullUrl": "urn:uuid:b2f6d455-6098-4b54-9d03-713ec4389ce3",
            "resource": {
                "resourceType": "Location",
                "id": "urn:uuid:b2f6d455-6098-4b54-9d03-713ec4389ce3",
                "meta": {
                    "profile": [
                        "http://hl7.org/fhir/us/vrdr/StructureDefinition/VRDR-Injury-Location"
                    ]
                },
                "address": {
                    "line": [
                        "North Stephanie Street"
                    ],
                    "city": "Henderson",
                    "district": "Clark",
                    "state": "Nevada",
                    "postalCode": "89014",
                    "country": "United States"
                }
            }
        },
        {
            "fullUrl": "urn:uuid:0f4a95c1-b179-4356-88c3-5719efa66f86",
            "resource": {
                "resourceType": "Person",
                "id": "urn:uuid:0f4a95c1-b179-4356-88c3-5719efa66f86",
                "meta": {
                    "profile": [
                        "http://example.org/clark-example-ig/Custom-Codesystem-Example/NVDRS-Firearm-Owner-Extension"
                    ]
                },
                "name": [
                    {
                        "family": "Murie",
                        "given": [
                            "Ben",
                            ""
                        ]
                    }
                ]
            }
        },
        {
            "fullUrl": "urn:uuid:fb9d18f7-7a2e-424a-a9c5-73f0b2d9e21e",
            "resource": {
                "resourceType": "Observation",
                "id": "urn:uuid:fb9d18f7-7a2e-424a-a9c5-73f0b2d9e21e",
                "meta": {
                    "profile": [
                        "http://hl7.org/fhir/us/core/StructureDefinition/us-core-body-height"
                    ]
                },
                "status": "final",
                "category": [
                    {
                        "coding": [
                            {
                                "system": "http://terminology.hl7.org/CodeSystem/observation-category",
                                "code": "vital-signs",
                                "display": "Vital Signs"
                            }
                        ],
                        "text": "Vital Signs"
                    }
                ],
                "code": {
                    "coding": [
                        {
                            "system": "http://loinc.org",
                            "code": "8302-2",
                            "display": "Body height"
                        }
                    ],
                    "text": "height"
                },
                "subject": {
                    "reference": "urn:uuid:a331ecfb-944a-44ec-8ce9-75378fb7019d"
                },
                "effectiveDateTime": "2024-05-02",
                "valueQuantity": {
                    "value": 1371.60,
                    "unit": "cm",
                    "system": "http://unitsofmeasure.org",
                    "code": "cm"
                }
            }
        },
        {
            "fullUrl": "urn:uuid:267567de-5f45-4585-a421-989b99711a8f",
            "resource": {
                "resourceType": "Observation",
                "id": "urn:uuid:267567de-5f45-4585-a421-989b99711a8f",
                "meta": {
                    "profile": [
                        "http://hl7.org/fhir/us/core/StructureDefinition/us-core-body-weight"
                    ]
                },
                "status": "final",
                "category": [
                    {
                        "coding": [
                            {
                                "system": "http://terminology.hl7.org/CodeSystem/observation-category",
                                "code": "vital-signs",
                                "display": "Vital Signs"
                            }
                        ],
                        "text": "Vital Signs"
                    }
                ],
                "code": {
                    "coding": [
                        {
                            "system": "http://loinc.org",
                            "code": "29463-7",
                            "display": "Body Weight"
                        }
                    ],
                    "text": "weight"
                },
                "subject": {
                    "reference": "urn:uuid:a331ecfb-944a-44ec-8ce9-75378fb7019d"
                },
                "effectiveDateTime": "2024-05-02",
                "valueQuantity": {
                    "value": 64,
                    "unit": "[lb_av]",
                    "system": "http://unitsofmeasure.org",
                    "code": "[lb_av]"
                }
            }
        },
        {
            "fullUrl": "urn:uuid:c2985cc5-aac3-42d3-a52b-12425998491d",
            "resource": {
                "resourceType": "Observation",
                "id": "urn:uuid:c2985cc5-aac3-42d3-a52b-12425998491d",
                "meta": {
                    "profile": [
                        "http://hl7.org/fhir/us/vr-common-library/StructureDefinition/Observation-usual-work-vr"
                    ]
                },
                "status": "final",
                "code": {
                    "coding": [
                        {
                            "system": "http://loinc.org",
                            "code": "21843-8"
                        }
                    ]
                },
                "subject": {
                    "reference": "urn:uuid:a331ecfb-944a-44ec-8ce9-75378fb7019d"
                },
                "valueCodeableConcept": {
                    "text": "occupation"
                },
                "component": [
                    {
                        "code": {
                            "coding": [
                                {
                                    "system": "http://loinc.org",
                                    "code": "21844-6"
                                }
                            ]
                        },
                        "valueCodeableConcept": {
                            "text": "occupation"
                        }
                    }
                ]
            }
        },
        {
            "fullUrl": "urn:uuid:af35db76-37eb-45cb-be3d-c24fb69a6877",
            "resource": {
                "resourceType": "Observation",
                "id": "urn:uuid:af35db76-37eb-45cb-be3d-c24fb69a6877",
                "meta": {
                    "profile": [
                        "http://example.org/clark-example-ig/NVDRS-Gang-Activity"
                    ]
                },
                "status": "final",
                "category": [
                    {
                        "coding": [
                            {
                                "system": "http://example.org/clark-example-ig/Custom-Codesystem-Example",
                                "code": "circumstances",
                                "display": "Circumstances"
                            }
                        ],
                        "text": "Circumstances"
                    }
                ],
                "code": {
                    "coding": [
                        {
                            "system": "http://example.org/clark-example-ig/Custom-Codesystem-Example",
                            "code": "gang-activity",
                            "display": "Gang Activity"
                        }
                    ],
                    "text": "Gang Activity"
                },
                "component": [
                    {
                        "code": {
                            "coding": [
                                {
                                    "system": "http://example.org/clark-example-ig/Custom-Codesystem-Example",
                                    "code": "gang-related",
                                    "display": "Gang - Related"
                                }
                            ],
                            "text": "Gang - Related"
                        },
                        "valueCodeableConcept": {
                            "coding": [
                                {
                                    "system": "http://terminology.hl7.org/CodeSystem/v2-0136",
                                    "code": "Y"
                                }
                            ],
                            "text": "Yes"
                        }
                    }
                ]
            }
        },
        {
            "fullUrl": "urn:uuid:f1c0ed70-a080-4000-8a70-f1321bd63734",
            "resource": {
                "resourceType": "Observation",
                "id": "urn:uuid:f1c0ed70-a080-4000-8a70-f1321bd63734",
                "meta": {
                    "profile": [
                        "http://example.org/clark-example-ig/NVDRS-Firearm-Activity"
                    ]
                },
                "status": "final",
                "category": [
                    {
                        "coding": [
                            {
                                "system": "http://example.org/clark-example-ig/Custom-Codesystem-Example",
                                "code": "circumstances",
                                "display": "Circumstances"
                            }
                        ],
                        "text": "Circumstances"
                    }
                ],
                "code": {
                    "coding": [
                        {
                            "system": "http://example.org/clark-example-ig/Custom-Codesystem-Example",
                            "code": "firearm-activity",
                            "display": "Firearm Activity"
                        }
                    ],
                    "text": "Firearm Activity"
                },
                "component": [
                    {
                        "code": {
                            "coding": [
                                {
                                    "system": "http://example.org/clark-example-ig/Custom-Codesystem-Example",
                                    "code": "gun-playing",
                                    "display": "Gun - Playing"
                                }
                            ],
                            "text": "Gun - Playing"
                        },
                        "valueCodeableConcept": {
                            "coding": [
                                {
                                    "system": "http://terminology.hl7.org/CodeSystem/v2-0136",
                                    "code": "Y"
                                }
                            ],
                            "text": "Yes"
                        }
                    },
                    {
                        "code": {
                            "coding": [
                                {
                                    "system": "http://example.org/clark-example-ig/Custom-Codesystem-Example",
                                    "code": "drive-by-shooting",
                                    "display": "Drive By Shooting"
                                }
                            ],
                            "text": "Drive By Shooting"
                        },
                        "valueCodeableConcept": {
                            "coding": [
                                {
                                    "system": "http://terminology.hl7.org/CodeSystem/v2-0136",
                                    "code": "Y"
                                }
                            ],
                            "text": "Yes"
                        }
                    }
                ]
            }
        },
        {
            "fullUrl": "urn:uuid:95aa2126-a75b-4de4-af00-bb01fffcafa2",
            "resource": {
                "resourceType": "Observation",
                "id": "urn:uuid:95aa2126-a75b-4de4-af00-bb01fffcafa2",
                "meta": {
                    "profile": [
                        "http://example.org/clark-example-ig/NVDRS-Injury-Scene"
                    ]
                },
                "status": "final",
                "category": [
                    {
                        "coding": [
                            {
                                "system": "http://example.org/clark-example-ig/Custom-Codesystem-Example",
                                "code": "circumstances",
                                "display": "Circumstances"
                            }
                        ],
                        "text": "Circumstances"
                    }
                ],
                "code": {
                    "coding": [
                        {
                            "system": "http://example.org/clark-example-ig/Custom-Codesystem-Example",
                            "code": "injury-scene",
                            "display": "Details on Injury Scene"
                        }
                    ],
                    "text": "Details on Injury Scene"
                },
                "component": [
                    {
                        "code": {
                            "coding": [
                                {
                                    "system": "http://example.org/clark-example-ig/Custom-Codesystem-Example",
                                    "code": "number-bullets",
                                    "display": "Injury Scene - Number Bullets"
                                }
                            ],
                            "text": "Injury Scene - Number Bullets"
                        },
                        "valueInteger": 6
                    },
                    {
                        "code": {
                            "coding": [
                                {
                                    "system": "http://example.org/clark-example-ig/Custom-Codesystem-Example",
                                    "code": "ems-present",
                                    "display": "Injury Scene - EMS Present"
                                }
                            ],
                            "text": "Injury Scene - EMS Present"
                        },
                        "valueCodeableConcept": {
                            "coding": [
                                {
                                    "system": "http://terminology.hl7.org/CodeSystem/v2-0136",
                                    "code": "Y"
                                }
                            ],
                            "text": "Yes"
                        }
                    }
                ]
            }
        },
        {
            "fullUrl": "urn:uuid:e03be884-5e41-48f0-9bab-eccf5f65d9e5",
            "resource": {
                "resourceType": "Observation",
                "id": "urn:uuid:e03be884-5e41-48f0-9bab-eccf5f65d9e5",
                "meta": {
                    "profile": [
                        "http://example.org/clark-example-ig/NVDRS-Condition-Clinical"
                    ]
                },
                "status": "final",
                "category": [
                    {
                        "coding": [
                            {
                                "system": "http://example.org/clark-example-ig/Custom-Codesystem-Example",
                                "code": "circumstances",
                                "display": "Circumstances"
                            }
                        ],
                        "text": "Circumstances"
                    }
                ],
                "code": {
                    "coding": [
                        {
                            "system": "http://example.org/clark-example-ig/Custom-Codesystem-Example",
                            "code": "Condition-Clinical",
                            "display": "Condition Clinical"
                        }
                    ],
                    "text": "Condition Clinical"
                },
                "component": [
                    {
                        "code": {
                            "coding": [
                                {
                                    "system": "http://example.org/clark-example-ig/Custom-Codesystem-Example",
                                    "code": "death-abuse",
                                    "display": "Condition Clinical - Death Abuse"
                                }
                            ],
                            "text": "Condition Clinical - Death Abuse"
                        },
                        "valueCodeableConcept": {
                            "coding": [
                                {
                                    "system": "http://terminology.hl7.org/CodeSystem/v2-0136",
                                    "code": "N"
                                }
                            ],
                            "text": "No"
                        }
                    },
                    {
                        "code": {
                            "coding": [
                                {
                                    "system": "http://example.org/clark-example-ig/Custom-Codesystem-Example",
                                    "code": "history-mentalI-ilness-treatmnt",
                                    "display": "Condition Clinical - History Mental Illness Treatmnt"
                                }
                            ],
                            "text": "Condition Clinical - History Mental Illness Treatmnt"
                        },
                        "valueCodeableConcept": {
                            "coding": [
                                {
                                    "system": "http://terminology.hl7.org/CodeSystem/v2-0136",
                                    "code": "Y"
                                }
                            ],
                            "text": "Yes"
                        }
                    },
                    {
                        "code": {
                            "coding": [
                                {
                                    "system": "http://example.org/clark-example-ig/Custom-Codesystem-Example",
                                    "code": "history-self-harm",
                                    "display": "Condition Clinical - History Self Harm"
                                }
                            ],
                            "text": "Condition Clinical - History Self Harm"
                        },
                        "valueCodeableConcept": {
                            "coding": [
                                {
                                    "system": "http://terminology.hl7.org/CodeSystem/v2-0136",
                                    "code": "Y"
                                }
                            ],
                            "text": "Yes"
                        }
                    },
                    {
                        "code": {
                            "coding": [
                                {
                                    "system": "http://example.org/clark-example-ig/Custom-Codesystem-Example",
                                    "code": "random-violence",
                                    "display": "Condition Clinical - Random Violence"
                                }
                            ],
                            "text": "Condition Clinical - Random Violence"
                        },
                        "valueCodeableConcept": {
                            "coding": [
                                {
                                    "system": "http://terminology.hl7.org/CodeSystem/v2-0136",
                                    "code": "Y"
                                }
                            ],
                            "text": "Yes"
                        }
                    },
                    {
                        "code": {
                            "coding": [
                                {
                                    "system": "http://example.org/clark-example-ig/Custom-Codesystem-Example",
                                    "code": "school-problem",
                                    "display": "Condition Clinical - School Problem"
                                }
                            ],
                            "text": "Condition Clinical - School Problem"
                        },
                        "valueCodeableConcept": {
                            "coding": [
                                {
                                    "system": "http://terminology.hl7.org/CodeSystem/v2-0136",
                                    "code": "Y"
                                }
                            ],
                            "text": "Yes"
                        }
                    },
                    {
                        "code": {
                            "coding": [
                                {
                                    "system": "http://example.org/clark-example-ig/Custom-Codesystem-Example",
                                    "code": "suicide-attempt-history",
                                    "display": "Condition Clinical - Suicide Attempt History"
                                }
                            ],
                            "text": "Condition Clinical - Suicide Attempt History"
                        },
                        "valueCodeableConcept": {
                            "coding": [
                                {
                                    "system": "http://terminology.hl7.org/CodeSystem/v2-0136",
                                    "code": "Y"
                                }
                            ],
                            "text": "Yes"
                        }
                    }
                ]
            }
        },
        {
            "fullUrl": "urn:uuid:60002b9e-7a9f-4447-823f-4ecb3cb0d14a",
            "resource": {
                "resourceType": "Observation",
                "id": "urn:uuid:60002b9e-7a9f-4447-823f-4ecb3cb0d14a",
                "meta": {
                    "extension": [
                        {
                            "url": "http://hl7.org/fhir/StructureDefinition/instance-name",
                            "valueString": "Socia lHistory - Homeless"
                        }
                    ],
                    "profile": [
                        "http://hl7.org/fhir/us/core/StructureDefinition/us-core-observation-social-history"
                    ]
                },
                "status": "final",
                "category": [
                    {
                        "coding": [
                            {
                                "system": "http://terminology.hl7.org/CodeSystem/observation-category",
                                "code": "social-history",
                                "display": "Social History"
                            }
                        ]
                    }
                ],
                "code": {
                    "coding": [
                        {
                            "system": "http://snomed.info/sct",
                            "code": "32911000",
                            "display": "Homeless"
                        }
                    ]
                },
                "subject": {
                    "reference": "urn:uuid:a331ecfb-944a-44ec-8ce9-75378fb7019d"
                },
                "effectiveDateTime": "2024-05-02T20:08:37.6938738+00:00",
                "valueBoolean": true
            }
        },
        {
            "fullUrl": "urn:uuid:3bcdc3ab-d390-486d-8c23-95456849ca4c",
            "resource": {
                "resourceType": "Specimen",
                "id": "urn:uuid:3bcdc3ab-d390-486d-8c23-95456849ca4c",
                "meta": {
                    "profile": [
                        "http://hl7.org/fhir/us/mdi/StructureDefinition/Specimen-toxicology-lab"
                    ]
                },
                "status": "available",
                "type": {
                    "coding": [
                        {
                            "system": "http://example.org/clark-example-ig/Custom-Codesystem-Example",
                            "code": "specimen",
                            "display": "Specimen"
                        }
                    ],
                    "text": "Specimen"
                },
                "subject": {
                    "reference": "urn:uuid:a331ecfb-944a-44ec-8ce9-75378fb7019d"
                },
                "collection": {
                    "collectedDateTime": "2024-05-01T15:36:00+00:00"
                }
            }
        }
    ]
}
